% Langmuir characteristic curve

% U (Volt)	I (A)
-12.000000	-3.910391E-7
-11.993000	-2.810266E-7
-11.986000	-3.275927E-7
-11.979000	-4.037283E-7
-11.972000	-5.263137E-7
-11.965000	-4.249159E-7
-11.958000	-4.291069E-7
-11.951000	-5.728798E-7
-11.944000	-3.656605E-7
-11.937000	-5.137408E-7
-11.930000	-3.698515E-7
-11.923000	-1.626322E-7
-11.916000	-4.079193E-7
-11.909000	-5.855691E-7
-11.902000	-3.952300E-7
-11.895000	-1.161825E-7
-11.888000	-3.910391E-7
-11.881000	-3.234018E-7
-11.874000	-3.360910E-7
-11.867000	-4.713656E-7
-11.860000	-3.952300E-7
-11.853000	-3.995374E-7
-11.846000	-3.698515E-7
-11.839000	-6.997725E-7
-11.832000	-4.798640E-7
-11.825000	-1.965091E-7
-11.818000	-3.529713E-7
-11.811000	-4.713656E-7
-11.804000	-3.783498E-7
-11.797000	-5.475013E-7
-11.790000	-3.571622E-7
-11.783000	-2.599554E-7
-11.776000	-3.487803E-7
-11.769000	-1.711305E-7
-11.762000	-2.810266E-7
-11.755000	-3.571622E-7
-11.748000	-4.206086E-7
-11.741000	-3.571622E-7
-11.734000	-3.741588E-7
-11.727000	-3.487803E-7
-11.720000	-5.433103E-7
-11.713000	-5.643815E-7
-11.706000	-4.417961E-7
-11.699000	-3.656605E-7
-11.692000	-3.149034E-7
-11.685000	-3.402820E-7
-11.678000	-2.853340E-7
-11.671000	-3.317837E-7
-11.664000	-2.810266E-7
-11.657000	-3.275927E-7
-11.650000	-4.376052E-7
-11.643000	-2.007000E-7
-11.636000	-3.360910E-7
-11.629000	-3.487803E-7
-11.622000	-5.348120E-7
-11.615000	-1.838198E-7
-11.608000	-4.164176E-7
-11.601000	-4.544854E-7
-11.594000	-3.783498E-7
-11.587000	-3.022142E-7
-11.580000	-5.348120E-7
-11.573000	-3.317837E-7
-11.566000	-1.584413E-7
-11.559000	-1.288718E-7
-11.552000	-2.895249E-7
-11.545000	-3.529713E-7
-11.538000	-4.883623E-7
-11.531000	-3.741588E-7
-11.523500	-6.575137E-7
-11.516500	-3.571622E-7
-11.509500	-5.179318E-7
-11.502500	-2.260786E-7
-11.495500	-4.079193E-7
-11.488500	-4.164176E-7
-11.481500	-3.529713E-7
-11.474500	-3.698515E-7
-11.467500	-5.475013E-7
-11.460500	-4.840549E-7
-11.453500	-3.741588E-7
-11.446500	-4.798640E-7
-11.439500	-3.741588E-7
-11.432500	-3.698515E-7
-11.425500	-4.079193E-7
-11.418500	-3.783498E-7
-11.411500	-6.024493E-7
-11.404500	-7.505296E-7
-11.397500	-4.206086E-7
-11.390500	-3.868481E-7
-11.383500	-5.306210E-7
-11.376500	-3.487803E-7
-11.369500	-2.895249E-7
-11.362500	-2.683373E-7
-11.355500	-3.698515E-7
-11.348500	-2.345769E-7
-11.341500	-2.810266E-7
-11.334500	-3.952300E-7
-11.327500	-4.249159E-7
-11.320500	-4.079193E-7
-11.313500	-3.360910E-7
-11.306500	-4.332978E-7
-11.299500	-3.360910E-7
-11.292500	-4.544854E-7
-11.285500	-1.753215E-7
-11.278500	-2.937159E-7
-11.271500	-3.698515E-7
-11.264500	-3.952300E-7
-11.257500	-3.656605E-7
-11.250500	-1.499429E-7
-11.243500	-3.234018E-7
-11.236500	-2.980232E-7
-11.229500	-4.164176E-7
-11.222500	-2.599554E-7
-11.215500	-3.107125E-7
-11.208500	-1.669396E-7
-11.201500	-5.601905E-7
-11.194500	-3.064051E-7
-11.187500	-7.420313E-7
-11.180500	-3.952300E-7
-11.173500	-3.910391E-7
-11.166500	-3.190944E-7
-11.159500	-3.444729E-7
-11.152500	-2.768356E-7
-11.145500	-3.149034E-7
-11.138500	-3.952300E-7
-11.131500	-2.937159E-7
-11.124500	-3.656605E-7
-11.117500	-4.249159E-7
-11.110500	-3.741588E-7
-11.103500	-3.275927E-7
-11.096500	-3.910391E-7
-11.089500	-2.472661E-7
-11.082500	-5.010515E-7
-11.075500	-1.796288E-7
-11.068500	-3.149034E-7
-11.061500	-5.348120E-7
-11.054500	-4.840549E-7
-11.047500	-3.910391E-7
-11.040500	-3.275927E-7
-11.033500	-3.234018E-7
-11.026500	-3.656605E-7
-11.019500	-1.288718E-7
-11.012500	-3.529713E-7
-11.005500	-3.234018E-7
-10.998500	-3.360910E-7
-10.991500	-2.091983E-7
-10.984500	-4.417961E-7
-10.977500	-3.487803E-7
-10.970500	-5.516922E-7
-10.963500	-3.783498E-7
-10.956500	-5.179318E-7
-10.949500	-2.683373E-7
-10.942500	-2.937159E-7
-10.935500	-2.683373E-7
-10.928500	-4.967442E-7
-10.921500	-2.472661E-7
-10.914500	-3.107125E-7
-10.907500	-4.206086E-7
-10.900500	-3.529713E-7
-10.893500	-3.656605E-7
-10.886500	-5.475013E-7
-10.879500	-3.868481E-7
-10.872500	-1.753215E-7
-10.865500	-3.910391E-7
-10.858500	-4.291069E-7
-10.851500	-2.768356E-7
-10.844500	-3.825407E-7
-10.837500	-4.967442E-7
-10.830500	-3.825407E-7
-10.823500	-4.079193E-7
-10.816500	-3.234018E-7
-10.809500	-2.768356E-7
-10.802500	-2.683373E-7
-10.795500	-4.206086E-7
-10.788500	-3.360910E-7
-10.781500	-4.332978E-7
-10.774500	-4.249159E-7
-10.767500	-3.952300E-7
-10.760500	-4.417961E-7
-10.753500	-2.895249E-7
-10.746500	-4.459871E-7
-10.739500	-3.825407E-7
-10.732500	-5.263137E-7
-10.725500	-3.571622E-7
-10.718500	-2.345769E-7
-10.711500	-2.726447E-7
-10.704500	-4.756730E-7
-10.697500	-3.783498E-7
-10.690500	-4.037283E-7
-10.683500	-3.064051E-7
-10.676500	-3.360910E-7
-10.669500	-5.516922E-7
-10.662500	-3.910391E-7
-10.655500	-3.698515E-7
-10.648500	-2.768356E-7
-10.641500	-4.840549E-7
-10.634500	-3.022142E-7
-10.627500	-2.726447E-7
-10.620500	-2.768356E-7
-10.613500	-4.586764E-7
-10.606500	-2.683373E-7
-10.599000	-2.260786E-7
-10.592000	-3.656605E-7
-10.585000	-2.599554E-7
-10.578000	-3.614696E-7
-10.571000	-3.910391E-7
-10.564000	-4.037283E-7
-10.557000	-3.910391E-7
-10.550000	-3.741588E-7
-10.543000	-2.853340E-7
-10.536000	-3.275927E-7
-10.529000	-2.980232E-7
-10.522000	-3.698515E-7
-10.515000	-4.967442E-7
-10.508000	-3.571622E-7
-10.501000	-4.417961E-7
-10.494000	-1.923181E-7
-10.487000	-4.840549E-7
-10.480000	-2.980232E-7
-10.473000	-2.980232E-7
-10.466000	-3.275927E-7
-10.459000	-1.626322E-7
-10.452000	-3.529713E-7
-10.445000	-4.249159E-7
-10.438000	-3.868481E-7
-10.431000	-3.107125E-7
-10.424000	-1.415610E-7
-10.417000	-3.360910E-7
-10.410000	-4.713656E-7
-10.403000	-3.275927E-7
-10.396000	-3.234018E-7
-10.389000	-2.937159E-7
-10.382000	-4.713656E-7
-10.375000	-3.360910E-7
-10.368000	-6.870832E-7
-10.361000	-4.417961E-7
-10.354000	-3.698515E-7
-10.347000	-3.317837E-7
-10.340000	-4.164176E-7
-10.333000	-2.091983E-7
-10.326000	-2.937159E-7
-10.319000	-3.190944E-7
-10.312000	-1.245644E-7
-10.305000	-1.584413E-7
-10.298000	-3.529713E-7
-10.291000	-3.741588E-7
-10.284000	-2.768356E-7
-10.277000	-3.190944E-7
-10.270000	-3.275927E-7
-10.263000	-3.741588E-7
-10.256000	-4.206086E-7
-10.249000	-4.332978E-7
-10.242000	-4.079193E-7
-10.235000	-3.995374E-7
-10.228000	-4.037283E-7
-10.221000	-3.783498E-7
-10.214000	-3.275927E-7
-10.207000	-3.402820E-7
-10.200000	-3.656605E-7
-10.193000	-3.234018E-7
-10.186000	-2.514571E-7
-10.179000	-3.064051E-7
-10.172000	-3.487803E-7
-10.165000	-5.179318E-7
-10.158000	-3.571622E-7
-10.151000	-4.332978E-7
-10.144000	-4.883623E-7
-10.137000	-3.275927E-7
-10.130000	-3.317837E-7
-10.123000	-3.022142E-7
-10.116000	-6.194459E-7
-10.109000	-3.698515E-7
-10.102000	-3.783498E-7
-10.095000	-3.529713E-7
-10.088000	-3.783498E-7
-10.081000	-2.429588E-7
-10.074000	-3.317837E-7
-10.067000	-4.459871E-7
-10.060000	-5.052425E-7
-10.053000	-4.798640E-7
-10.046000	-4.376052E-7
-10.039000	-5.475013E-7
-10.032000	-3.487803E-7
-10.025000	-3.910391E-7
-10.018000	-3.910391E-7
-10.011000	-3.952300E-7
-10.004000	-3.317837E-7
-9.997000	-2.895249E-7
-9.990000	-2.599554E-7
-9.983000	-3.529713E-7
-9.976000	-2.980232E-7
-9.969000	-2.514571E-7
-9.962000	-3.698515E-7
-9.955000	-3.614696E-7
-9.948000	-3.487803E-7
-9.941000	-2.768356E-7
-9.934000	-3.995374E-7
-9.927000	-3.064051E-7
-9.920000	-1.542503E-7
-9.913000	-4.291069E-7
-9.906000	-2.853340E-7
-9.899000	-3.487803E-7
-9.892000	-4.037283E-7
-9.885000	-1.118751E-7
-9.878000	-4.417961E-7
-9.871000	-3.064051E-7
-9.864000	-1.330627E-7
-9.857000	-2.726447E-7
-9.850000	-3.275927E-7
-9.843000	-3.022142E-7
-9.836000	-5.094334E-7
-9.829000	-4.206086E-7
-9.822000	-3.234018E-7
-9.815000	-4.206086E-7
-9.808000	-4.206086E-7
-9.801000	-3.529713E-7
-9.794000	-5.010515E-7
-9.787000	-2.514571E-7
-9.780000	-3.698515E-7
-9.773000	-8.649658E-8
-9.766000	-3.064051E-7
-9.759000	-3.402820E-7
-9.752000	-3.317837E-7
-9.745000	-3.275927E-7
-9.738000	-3.275927E-7
-9.731000	-5.137408E-7
-9.724000	-3.022142E-7
-9.717000	-4.164176E-7
-9.710000	-3.868481E-7
-9.703000	-1.711305E-7
-9.696000	-1.499429E-7
-9.689000	-3.995374E-7
-9.681500	-2.726447E-7
-9.674500	-4.883623E-7
-9.667500	-3.107125E-7
-9.660500	-3.698515E-7
-9.653500	-3.614696E-7
-9.646500	-1.542503E-7
-9.639500	-3.190944E-7
-9.632500	-2.937159E-7
-9.625500	-3.825407E-7
-9.618500	-1.372537E-7
-9.611500	-3.741588E-7
-9.604500	-4.037283E-7
-9.597500	-3.064051E-7
-9.590500	-3.529713E-7
-9.583500	-3.529713E-7
-9.576500	-3.783498E-7
-9.569500	-5.179318E-7
-9.562500	-5.179318E-7
-9.555500	-2.556480E-7
-9.548500	-2.472661E-7
-9.541500	-9.499490E-8
-9.534500	-2.091983E-7
-9.527500	-3.783498E-7
-9.520500	-3.910391E-7
-9.513500	-3.952300E-7
-9.506500	-1.245644E-7
-9.499500	-3.234018E-7
-9.492500	-4.164176E-7
-9.485500	-4.544854E-7
-9.478500	-5.221227E-7
-9.471500	-3.275927E-7
-9.464500	-3.022142E-7
-9.457500	-4.883623E-7
-9.450500	-3.107125E-7
-9.443500	-2.768356E-7
-9.436500	-2.768356E-7
-9.429500	-8.230563E-8
-9.422500	-3.402820E-7
-9.415500	-3.402820E-7
-9.408500	-4.883623E-7
-9.401500	-3.910391E-7
-9.394500	-3.910391E-7
-9.387500	-5.643815E-7
-9.380500	-3.107125E-7
-9.373500	-3.995374E-7
-9.366500	-2.641464E-7
-9.359500	-3.698515E-7
-9.352500	-1.161825E-7
-9.345500	-4.164176E-7
-9.338500	-2.387678E-7
-9.331500	-2.345769E-7
-9.324500	-3.360910E-7
-9.317500	-1.288718E-7
-9.310500	-2.176967E-7
-9.303500	-1.330627E-7
-9.296500	-3.190944E-7
-9.289500	-3.783498E-7
-9.282500	-4.079193E-7
-9.275500	-3.149034E-7
-9.268500	-2.514571E-7
-9.261500	-3.234018E-7
-9.254500	-3.107125E-7
-9.247500	-3.317837E-7
-9.240500	-3.444729E-7
-9.233500	-4.544854E-7
-9.226500	-5.601905E-7
-9.219500	-2.387678E-7
-9.212500	-2.810266E-7
-9.205500	-3.107125E-7
-9.198500	-3.656605E-7
-9.191500	-3.910391E-7
-9.184500	-3.614696E-7
-9.177500	-3.360910E-7
-9.170500	-3.022142E-7
-9.163500	-4.376052E-7
-9.156500	-2.895249E-7
-9.149500	-3.275927E-7
-9.142500	-3.275927E-7
-9.135500	-6.111804E-8
-9.128500	-3.022142E-7
-9.121500	-5.010515E-7
-9.114500	-3.614696E-7
-9.107500	-3.995374E-7
-9.100500	-4.629837E-7
-9.093500	-2.641464E-7
-9.086500	-4.122267E-7
-9.079500	-2.937159E-7
-9.072500	-3.614696E-7
-9.065500	-3.698515E-7
-9.058500	-1.372537E-7
-9.051500	-1.372537E-7
-9.044500	-3.910391E-7
-9.037500	-4.798640E-7
-9.030500	-2.007000E-7
-9.023500	-2.937159E-7
-9.016500	-2.768356E-7
-9.009500	-4.925532E-7
-9.002500	-2.599554E-7
-8.995500	-3.656605E-7
-8.988500	-4.459871E-7
-8.981500	-9.499490E-8
-8.974500	-4.671747E-7
-8.967500	-2.683373E-7
-8.960500	-2.641464E-7
-8.953500	-4.122267E-7
-8.946500	-4.459871E-7
-8.939500	-2.768356E-7
-8.932500	-3.317837E-7
-8.925500	-7.811468E-8
-8.918500	-3.190944E-7
-8.911500	-4.332978E-7
-8.904500	-2.345769E-7
-8.897500	-4.037283E-7
-8.890500	-4.122267E-7
-8.883500	-2.345769E-7
-8.876500	-5.010515E-7
-8.869500	-1.288718E-7
-8.862500	-3.107125E-7
-8.855500	-3.022142E-7
-8.848500	-2.937159E-7
-8.841500	-3.487803E-7
-8.834500	-3.402820E-7
-8.827500	-2.810266E-7
-8.820500	-4.544854E-7
-8.813500	-3.360910E-7
-8.806500	-2.260786E-7
-8.799500	-2.302695E-7
-8.792500	-2.810266E-7
-8.785500	-4.417961E-7
-8.778500	-2.810266E-7
-8.771500	-4.544854E-7
-8.764500	-4.544854E-7
-8.757000	-3.022142E-7
-8.750000	-2.726447E-7
-8.743000	-4.925532E-7
-8.736000	-3.275927E-7
-8.729000	-3.275927E-7
-8.722000	-1.034932E-7
-8.715000	-3.402820E-7
-8.708000	-1.838198E-7
-8.701000	-2.133893E-7
-8.694000	-4.332978E-7
-8.687000	-2.345769E-7
-8.680000	-2.980232E-7
-8.673000	-2.683373E-7
-8.666000	-5.433103E-7
-8.659000	-4.037283E-7
-8.652000	-3.910391E-7
-8.645000	-1.330627E-7
-8.638000	-3.783498E-7
-8.631000	-2.302695E-7
-8.624000	-3.529713E-7
-8.617000	-2.556480E-7
-8.610000	-1.372537E-7
-8.603000	-2.472661E-7
-8.596000	-2.091983E-7
-8.589000	-3.275927E-7
-8.582000	-2.853340E-7
-8.575000	-3.317837E-7
-8.568000	-8.649658E-8
-8.561000	-3.656605E-7
-8.554000	-2.641464E-7
-8.547000	-1.542503E-7
-8.540000	-3.275927E-7
-8.533000	-2.853340E-7
-8.526000	-3.698515E-7
-8.519000	-3.910391E-7
-8.512000	-3.868481E-7
-8.505000	-3.952300E-7
-8.498000	-2.810266E-7
-8.491000	-1.838198E-7
-8.484000	-3.149034E-7
-8.477000	-3.952300E-7
-8.470000	-3.234018E-7
-8.463000	-4.291069E-7
-8.456000	-4.417961E-7
-8.449000	-2.895249E-7
-8.442000	-3.402820E-7
-8.435000	-5.052425E-7
-8.428000	-3.825407E-7
-8.421000	-2.726447E-7
-8.414000	-3.402820E-7
-8.407000	-2.429588E-7
-8.400000	-2.133893E-7
-8.393000	-3.275927E-7
-8.386000	-1.923181E-7
-8.379000	-2.302695E-7
-8.372000	-2.556480E-7
-8.365000	-2.556480E-7
-8.358000	-4.206086E-7
-8.351000	-3.149034E-7
-8.344000	-2.641464E-7
-8.337000	-2.599554E-7
-8.330000	-3.190944E-7
-8.323000	-3.529713E-7
-8.316000	-3.402820E-7
-8.309000	-4.713656E-7
-8.302000	-2.514571E-7
-8.295000	-1.965091E-7
-8.288000	-4.423782E-8
-8.281000	-2.302695E-7
-8.274000	-1.330627E-7
-8.267000	-7.811468E-8
-8.260000	-3.064051E-7
-8.253000	-6.111804E-8
-8.246000	-2.895249E-7
-8.239000	-3.444729E-7
-8.232000	-2.218876E-7
-8.225000	-3.656605E-7
-8.218000	-2.641464E-7
-8.211000	-2.895249E-7
-8.204000	-3.107125E-7
-8.197000	-2.345769E-7
-8.190000	-4.713656E-7
-8.183000	-2.302695E-7
-8.176000	-2.472661E-7
-8.169000	-2.345769E-7
-8.162000	-1.923181E-7
-8.155000	-1.923181E-7
-8.148000	-3.022142E-7
-8.141000	-4.842877E-8
-8.134000	-2.387678E-7
-8.127000	-3.402820E-7
-8.120000	-5.052425E-7
-8.113000	-4.332978E-7
-8.106000	-3.022142E-7
-8.099000	-3.360910E-7
-8.092000	-2.556480E-7
-8.085000	-3.317837E-7
-8.078000	-8.649658E-8
-8.071000	-2.810266E-7
-8.064000	-1.979060E-9
-8.057000	-2.514571E-7
-8.050000	-1.923181E-7
-8.043000	-4.079193E-7
-8.036000	-2.050074E-7
-8.029000	-3.360910E-7
-8.022000	-3.234018E-7
-8.015000	-4.079193E-7
-8.008000	-3.573950E-8
-8.001000	-2.980232E-7
-7.994000	-2.133893E-7
-7.987000	-1.711305E-7
-7.980000	-2.260786E-7
-7.973000	-2.133893E-7
-7.966000	-3.487803E-7
-7.959000	-3.614696E-7
-7.952000	-2.641464E-7
-7.945000	-2.176967E-7
-7.938000	-2.599554E-7
-7.931000	-1.885928E-8
-7.924000	-3.107125E-7
-7.917000	-2.853340E-7
-7.910000	-1.965091E-7
-7.903000	-2.472661E-7
-7.896000	-2.514571E-7
-7.889000	-2.599554E-7
-7.882000	-2.345769E-7
-7.875000	2.328306E-9
-7.868000	-1.457520E-7
-7.861000	-1.542503E-7
-7.854000	-2.091983E-7
-7.847000	-1.457520E-7
-7.840000	-1.118751E-7
-7.833000	-2.260786E-7
-7.826000	-2.387678E-7
-7.819000	-2.260786E-7
-7.812000	-1.499429E-7
-7.804500	-1.880107E-7
-7.797500	-1.036096E-8
-7.790500	-1.711305E-7
-7.783500	-2.514571E-7
-7.776500	-2.599554E-7
-7.769500	-2.133893E-7
-7.762500	-2.556480E-7
-7.755500	-1.753215E-7
-7.748500	3.608875E-8
-7.741500	-2.091983E-7
-7.734500	-2.007000E-7
-7.727500	-8.649658E-8
-7.720500	-1.584413E-7
-7.713500	-1.584413E-7
-7.706500	-1.796288E-7
-7.699500	-3.360910E-7
-7.692500	-1.923181E-7
-7.685500	-2.218876E-7
-7.678500	-2.260786E-7
-7.671500	7.415656E-8
-7.664500	-1.584413E-7
-7.657500	-9.499490E-8
-7.650500	-1.711305E-7
-7.643500	-1.245644E-7
-7.636500	-1.584413E-7
-7.629500	-4.004687E-8
-7.622500	-9.918585E-8
-7.615500	-2.218876E-7
-7.608500	-8.230563E-8
-7.601500	-8.230563E-8
-7.594500	-2.810266E-7
-7.587500	-1.245644E-7
-7.580500	-1.330627E-7
-7.573500	-1.626322E-7
-7.566500	-1.796288E-7
-7.559500	-2.345769E-7
-7.552500	-2.133893E-7
-7.545500	6.146729E-8
-7.538500	-1.626322E-7
-7.531500	4.458707E-8
-7.524500	2.770685E-8
-7.517500	-7.380731E-8
-7.510500	2.770685E-8
-7.503500	4.039612E-8
-7.496500	-1.753215E-7
-7.489500	-9.918585E-8
-7.482500	4.458707E-8
-7.475500	-2.305023E-8
-7.468500	4.877802E-8
-7.461500	-5.692709E-8
-7.454500	-7.380731E-8
-7.447500	-1.330627E-7
-7.440500	5.727634E-8
-7.433500	4.039612E-8
-7.426500	-1.885928E-8
-7.419500	7.415656E-8
-7.412500	-5.273614E-8
-7.405500	1.501758E-8
-7.398500	3.608875E-8
-7.391500	1.920853E-8
-7.384500	6.577466E-8
-7.377500	1.920853E-8
-7.370500	-7.811468E-8
-7.363500	1.164153E-7
-7.356500	-6.170012E-9
-7.349500	8.684583E-8
-7.342500	1.756707E-7
-7.335500	9.953510E-8
-7.328500	3.575115E-7
-7.321500	6.996561E-8
-7.314500	2.559973E-7
-7.307500	6.146729E-8
-7.300500	3.363239E-7
-7.293500	1.502922E-7
-7.286500	4.124595E-7
-7.279500	2.010493E-7
-7.272500	2.391171E-7
-7.265500	1.714798E-7
-7.258500	8.684583E-8
-7.251500	2.474990E-7
-7.244500	2.813758E-7
-7.237500	2.518063E-7
-7.230500	5.351612E-7
-7.223500	3.109453E-7
-7.216500	3.743917E-7
-7.209500	2.855668E-7
-7.202500	4.885951E-7
-7.195500	3.406312E-7
-7.188500	3.660098E-7
-7.181500	4.844042E-7
-7.174500	6.154878E-7
-7.167500	3.406312E-7
-7.160500	4.082685E-7
-7.153500	3.575115E-7
-7.146500	4.420290E-7
-7.139500	5.308539E-7
-7.132500	5.435431E-7
-7.125500	6.704358E-7
-7.118500	6.027985E-7
-7.111500	4.293397E-7
-7.104500	5.689217E-7
-7.097500	5.774200E-7
-7.090500	6.577466E-7
-7.083500	8.353963E-7
-7.076500	7.000053E-7
-7.069500	5.139736E-7
-7.062500	6.281771E-7
-7.055500	5.647307E-7
-7.048500	8.818461E-7
-7.041500	5.435431E-7
-7.034500	7.296912E-7
-7.027500	6.577466E-7
-7.020500	8.734642E-7
-7.013500	6.746268E-7
-7.006500	1.084874E-6
-6.999500	7.170020E-7
-6.992500	9.621726E-7
-6.985500	9.115320E-7
-6.978500	8.183997E-7
-6.971500	9.452924E-7
-6.964500	9.452924E-7
-6.957500	7.719500E-7
-6.950500	1.228647E-6
-6.943500	8.607749E-7
-6.936500	1.122942E-6
-6.929500	1.139822E-6
-6.922500	1.089065E-6
-6.915500	1.152512E-6
-6.908500	1.199078E-6
-6.901500	1.245528E-6
-6.894500	1.520384E-6
-6.887500	1.317472E-6
-6.880500	1.418986E-6
-6.873500	1.431559E-6
-6.866500	1.393608E-6
-6.859500	1.456938E-6
-6.852500	1.393608E-6
-6.845500	1.495006E-6
-6.838500	1.372420E-6
-6.831500	1.499313E-6
-6.824500	1.816428E-6
-6.817500	1.389300E-6
-6.810500	1.634588E-6
-6.803500	1.693843E-6
-6.796500	1.829118E-6
-6.789500	1.693843E-6
-6.782500	1.888373E-6
-6.775500	1.765671E-6
-6.768500	1.888373E-6
-6.761500	1.698034E-6
-6.754500	2.015149E-6
-6.747000	2.150540E-6
-6.740000	2.049026E-6
-6.733000	2.103974E-6
-6.726000	2.243556E-6
-6.719000	2.264744E-6
-6.712000	2.230867E-6
-6.705000	2.366141E-6
-6.698000	2.493034E-6
-6.691000	2.547982E-6
-6.684000	2.780580E-6
-6.677000	2.670684E-6
-6.670000	2.734130E-6
-6.663000	2.691755E-6
-6.656000	2.649496E-6
-6.649000	2.814457E-6
-6.642000	2.797460E-6
-6.635000	3.021676E-6
-6.628000	3.182329E-6
-6.621000	3.089313E-6
-6.614000	2.970919E-6
-6.607000	3.173831E-6
-6.600000	3.313413E-6
-6.593000	3.245776E-6
-6.586000	3.376859E-6
-6.579000	3.342982E-6
-6.572000	3.651716E-6
-6.565000	3.715162E-6
-6.558000	3.698282E-6
-6.551000	3.770110E-6
-6.544000	3.567198E-6
-6.537000	4.129601E-6
-6.530000	3.968948E-6
-6.523000	4.061963E-6
-6.516000	4.193047E-6
-6.509000	4.349509E-6
-6.502000	4.218426E-6
-6.495000	4.442525E-6
-6.488000	4.531350E-6
-6.481000	4.700501E-6
-6.474000	4.818896E-6
-6.467000	4.802016E-6
-6.460000	5.153008E-6
-6.453000	5.051494E-6
-6.446000	5.220645E-6
-6.439000	5.009118E-6
-6.432000	5.030306E-6
-6.425000	5.258713E-6
-6.418000	5.339039E-6
-6.411000	5.635084E-6
-6.404000	5.943701E-6
-6.397000	5.715410E-6
-6.390000	5.867565E-6
-6.383000	6.066402E-6
-6.376000	6.201677E-6
-6.369000	6.408896E-6
-6.362000	6.586546E-6
-6.355000	6.666873E-6
-6.348000	6.979797E-6
-6.341000	6.836024E-6
-6.334000	6.950228E-6
-6.327000	7.123570E-6
-6.320000	7.203897E-6
-6.313000	7.419614E-6
-6.306000	7.529510E-6
-6.299000	7.474562E-6
-6.292000	7.711351E-6
-6.285000	7.880502E-6
-6.278000	8.079223E-6
-6.271000	8.286443E-6
-6.264000	8.629053E-6
-6.257000	8.430216E-6
-6.250000	8.722069E-6
-6.243000	8.912291E-6
-6.236000	8.980045E-6
-6.229000	9.259093E-6
-6.222000	9.364798E-6
-6.215000	9.533949E-6
-6.208000	9.512878E-6
-6.201000	9.868061E-6
-6.194000	1.021056E-5
-6.187000	1.017679E-5
-6.180000	1.029088E-5
-6.173000	1.066306E-5
-6.166000	1.087878E-5
-6.159000	1.097179E-5
-6.152000	1.120858E-5
-6.145000	1.143699E-5
-6.138000	1.183443E-5
-6.131000	1.184712E-5
-6.124000	1.212629E-5
-6.117000	1.232070E-5
-6.110000	1.239264E-5
-6.103000	1.254911E-5
-6.096000	1.286203E-5
-6.089000	1.316227E-5
-6.082000	1.334830E-5
-6.075000	1.358939E-5
-6.068000	1.375005E-5
-6.061000	1.408416E-5
-6.054000	1.450279E-5
-6.047000	1.438439E-5
-6.040000	1.464237E-5
-6.033000	1.484540E-5
-6.026000	1.535704E-5
-6.019000	1.542887E-5
-6.012000	1.565728E-5
-6.005000	1.604215E-5
-5.998000	1.637614E-5
-5.991000	1.653261E-5
-5.984000	1.659186E-5
-5.977000	1.718383E-5
-5.970000	1.743331E-5
-5.963000	1.774204E-5
-5.956000	1.798314E-5
-5.949000	1.840177E-5
-5.942000	1.869781E-5
-5.935000	1.910795E-5
-5.928000	1.920527E-5
-5.921000	1.950550E-5
-5.914000	1.998758E-5
-5.907000	2.011447E-5
-5.900000	2.057117E-5
-5.893000	2.085022E-5
-5.886000	2.115895E-5
-5.879000	2.149295E-5
-5.872000	2.181018E-5
-5.865000	2.237258E-5
-5.858000	2.258399E-5
-5.851000	2.297305E-5
-5.844000	2.310413E-5
-5.837000	2.364547E-5
-5.830000	2.381881E-5
-5.823000	2.449122E-5
-5.816000	2.487609E-5
-5.809000	2.543000E-5
-5.802000	2.543419E-5
-5.795000	2.595014E-5
-5.788000	2.621661E-5
-5.781000	2.685084E-5
-5.774000	2.714689E-5
-5.767000	2.755714E-5
-5.760000	2.792082E-5
-5.753000	2.839020E-5
-5.746000	2.896949E-5
-5.739000	2.943887E-5
-5.732000	2.973492E-5
-5.725000	3.025925E-5
-5.718000	3.088091E-5
-5.711000	3.117695E-5
-5.704000	3.175205E-5
-5.697000	3.217498E-5
-5.689500	3.259780E-5
-5.682500	3.306300E-5
-5.675500	3.362121E-5
-5.668500	3.431470E-5
-5.661500	3.459374E-5
-5.654500	3.518583E-5
-5.647500	3.550295E-5
-5.640500	3.614579E-5
-5.633500	3.677583E-5
-5.626500	3.735523E-5
-5.619500	3.788376E-5
-5.612500	3.856036E-5
-5.605500	3.914395E-5
-5.598500	3.941462E-5
-5.591500	4.015886E-5
-5.584500	4.070858E-5
-5.577500	4.124141E-5
-5.570500	4.181231E-5
-5.563500	4.247203E-5
-5.556500	4.320790E-5
-5.549500	4.347845E-5
-5.542500	4.430313E-5
-5.535500	4.475983E-5
-5.528500	4.557602E-5
-5.521500	4.636671E-5
-5.514500	4.670501E-5
-5.507500	4.758884E-5
-5.500500	4.813436E-5
-5.493500	4.896743E-5
-5.486500	4.967791E-5
-5.479500	5.013880E-5
-5.472500	5.063787E-5
-5.465500	5.144556E-5
-5.458500	5.236315E-5
-5.451500	5.301018E-5
-5.444500	5.374604E-5
-5.437500	5.449029E-5
-5.430500	5.508657E-5
-5.423500	5.603803E-5
-5.416500	5.682453E-5
-5.409500	5.759415E-5
-5.402500	5.834689E-5
-5.395500	5.896855E-5
-5.388500	5.988625E-5
-5.381500	6.082922E-5
-5.374500	6.134936E-5
-5.367500	6.244460E-5
-5.360500	6.325659E-5
-5.353500	6.425451E-5
-5.346500	6.482960E-5
-5.339500	6.562471E-5
-5.332500	6.645778E-5
-5.325500	6.733311E-5
-5.318500	6.828876E-5
-5.311500	6.926141E-5
-5.304500	7.017911E-5
-5.297500	7.129123E-5
-5.290500	7.199741E-5
-5.283500	7.298694E-5
-5.276500	7.379043E-5
-5.269500	7.491955E-5
-5.262500	7.588789E-5
-5.255500	7.669569E-5
-5.248500	7.781631E-5
-5.241500	7.883122E-5
-5.234500	7.961353E-5
-5.227500	8.080597E-5
-5.220500	8.177862E-5
-5.213500	8.271739E-5
-5.206500	8.387188E-5
-5.199500	8.497143E-5
-5.192500	8.606235E-5
-5.185500	8.731417E-5
-5.178500	8.826144E-5
-5.171500	8.940313E-5
-5.164500	9.045610E-5
-5.157500	9.163178E-5
-5.150500	9.296800E-5
-5.143500	9.391527E-5
-5.136500	9.503588E-5
-5.129500	9.619456E-5
-5.122500	9.731518E-5
-5.115500	9.845698E-5
-5.108500	9.991170E-5
-5.101500	0.000101
-5.094500	0.000102
-5.087500	0.000103
-5.080500	0.000105
-5.073500	0.000106
-5.066500	0.000107
-5.059500	0.000109
-5.052500	0.000110
-5.045500	0.000111
-5.038500	0.000112
-5.031500	0.000114
-5.024500	0.000115
-5.017500	0.000117
-5.010500	0.000118
-5.003500	0.000119
-4.996500	0.000121
-4.989500	0.000122
-4.982500	0.000123
-4.975500	0.000125
-4.968500	0.000126
-4.961500	0.000128
-4.954500	0.000129
-4.947500	0.000131
-4.940500	0.000132
-4.933500	0.000134
-4.926500	0.000135
-4.919500	0.000137
-4.912500	0.000138
-4.905500	0.000140
-4.898500	0.000142
-4.891500	0.000143
-4.884500	0.000144
-4.877500	0.000146
-4.870500	0.000148
-4.863500	0.000149
-4.856500	0.000151
-4.849500	0.000153
-4.842500	0.000154
-4.835500	0.000156
-4.828500	0.000158
-4.821500	0.000159
-4.814500	0.000161
-4.807500	0.000163
-4.800500	0.000164
-4.793500	0.000166
-4.786500	0.000168
-4.779500	0.000169
-4.772500	0.000171
-4.765500	0.000173
-4.758500	0.000174
-4.751500	0.000176
-4.744500	0.000178
-4.737500	0.000179
-4.730500	0.000181
-4.723500	0.000183
-4.716500	0.000185
-4.709500	0.000186
-4.702500	0.000188
-4.695500	0.000190
-4.688500	0.000191
-4.681500	0.000193
-4.674500	0.000194
-4.667500	0.000196
-4.660500	0.000198
-4.653500	0.000199
-4.646500	0.000201
-4.639500	0.000202
-4.632000	0.000204
-4.625000	0.000206
-4.618000	0.000207
-4.611000	0.000209
-4.604000	0.000210
-4.597000	0.000212
-4.590000	0.000213
-4.583000	0.000215
-4.576000	0.000216
-4.569000	0.000217
-4.562000	0.000219
-4.555000	0.000220
-4.548000	0.000221
-4.541000	0.000223
-4.534000	0.000224
-4.527000	0.000225
-4.520000	0.000226
-4.513000	0.000227
-4.506000	0.000229
-4.499000	0.000230
-4.492000	0.000231
-4.485000	0.000232
-4.478000	0.000233
-4.471000	0.000233
-4.464000	0.000235
-4.457000	0.000236
-4.450000	0.000236
-4.443000	0.000237
-4.436000	0.000238
-4.429000	0.000239
-4.422000	0.000240
-4.415000	0.000240
-4.408000	0.000241
-4.401000	0.000242
-4.394000	0.000242
-4.387000	0.000243
-4.380000	0.000244
-4.373000	0.000244
-4.366000	0.000245
-4.359000	0.000246
-4.352000	0.000246
-4.345000	0.000247
-4.338000	0.000247
-4.331000	0.000248
-4.324000	0.000249
-4.317000	0.000249
-4.310000	0.000250
-4.303000	0.000250
-4.296000	0.000251
-4.289000	0.000251
-4.282000	0.000252
-4.275000	0.000252
-4.268000	0.000253
-4.261000	0.000253
-4.254000	0.000254
-4.247000	0.000254
-4.240000	0.000255
-4.233000	0.000255
-4.226000	0.000256
-4.219000	0.000256
-4.212000	0.000257
-4.205000	0.000257
-4.198000	0.000258
-4.191000	0.000258
-4.184000	0.000259
-4.177000	0.000259
-4.170000	0.000260
-4.163000	0.000260
-4.156000	0.000261
-4.149000	0.000261
-4.142000	0.000261
-4.135000	0.000262
-4.128000	0.000262
-4.121000	0.000263
-4.114000	0.000263
-4.107000	0.000264
-4.100000	0.000264
-4.093000	0.000265
-4.086000	0.000265
-4.079000	0.000266
-4.072000	0.000266
-4.065000	0.000266
-4.058000	0.000267
-4.051000	0.000267
-4.044000	0.000268
-4.037000	0.000268
-4.030000	0.000268
-4.023000	0.000269
-4.016000	0.000269
-4.009000	0.000270
-4.002000	0.000270
-3.995000	0.000270
-3.988000	0.000271
-3.981000	0.000271
-3.974000	0.000272
-3.967000	0.000272
-3.960000	0.000272
-3.953000	0.000273
-3.946000	0.000273
-3.939000	0.000273
-3.932000	0.000274
-3.925000	0.000274
-3.918000	0.000274
-3.911000	0.000275
-3.904000	0.000275
-3.897000	0.000276
-3.890000	0.000276
-3.883000	0.000276
-3.876000	0.000277
-3.869000	0.000277
-3.862000	0.000277
-3.855000	0.000278
-3.848000	0.000278
-3.841000	0.000278
-3.834000	0.000279
-3.827000	0.000279
-3.820000	0.000279
-3.813000	0.000280
-3.806000	0.000280
-3.799000	0.000280
-3.792000	0.000281
-3.785000	0.000281
-3.778000	0.000281
-3.771000	0.000282
-3.764000	0.000282
-3.757000	0.000282
-3.750000	0.000283
-3.743000	0.000283
-3.736000	0.000283
-3.729000	0.000283
-3.722000	0.000284
-3.715000	0.000284
-3.708000	0.000284
-3.701000	0.000285
-3.694000	0.000285
-3.687000	0.000285
-3.680000	0.000286
-3.673000	0.000286
-3.666000	0.000286
-3.659000	0.000287
-3.652000	0.000287
-3.645000	0.000287
-3.638000	0.000287
-3.631000	0.000288
-3.624000	0.000288
-3.617000	0.000288
-3.610000	0.000289
-3.602500	0.000289
-3.595500	0.000289
-3.588500	0.000289
-3.581500	0.000290
-3.574500	0.000290
-3.567500	0.000290
-3.560500	0.000291
-3.553500	0.000291
-3.546500	0.000291
-3.539500	0.000291
-3.532500	0.000292
-3.525500	0.000292
-3.518500	0.000292
-3.511500	0.000292
-3.504500	0.000293
-3.497500	0.000293
-3.490500	0.000293
-3.483500	0.000293
-3.476500	0.000294
-3.469500	0.000294
-3.462500	0.000294
-3.455500	0.000294
-3.448500	0.000295
-3.441500	0.000295
-3.434500	0.000295
-3.427500	0.000295
-3.420500	0.000296
-3.413500	0.000296
-3.406500	0.000296
-3.399500	0.000296
-3.392500	0.000297
-3.385500	0.000297
-3.378500	0.000297
-3.371500	0.000297
-3.364500	0.000298
-3.357500	0.000298
-3.350500	0.000298
-3.343500	0.000298
-3.336500	0.000299
-3.329500	0.000299
-3.322500	0.000299
-3.315500	0.000299
-3.308500	0.000299
-3.301500	0.000300
-3.294500	0.000300
-3.287500	0.000300
-3.280500	0.000300
-3.273500	0.000301
-3.266500	0.000301
-3.259500	0.000301
-3.252500	0.000301
-3.245500	0.000301
-3.238500	0.000302
-3.231500	0.000302
-3.224500	0.000302
-3.217500	0.000302
-3.210500	0.000303
-3.203500	0.000303
-3.196500	0.000303
-3.189500	0.000303
-3.182500	0.000303
-3.175500	0.000304
-3.168500	0.000304
-3.161500	0.000304
-3.154500	0.000304
-3.147500	0.000304
-3.140500	0.000305
-3.133500	0.000305
-3.126500	0.000305
-3.119500	0.000305
-3.112500	0.000305
-3.105500	0.000306
-3.098500	0.000306
-3.091500	0.000306
-3.084500	0.000306
-3.077500	0.000306
-3.070500	0.000307
-3.063500	0.000307
-3.056500	0.000307
-3.049500	0.000307
-3.042500	0.000307
-3.035500	0.000308
-3.028500	0.000308
-3.021500	0.000308
-3.014500	0.000308
-3.007500	0.000308
-3.000500	0.000308
-2.993500	0.000309
-2.986500	0.000309
-2.979500	0.000309
-2.972500	0.000309
-2.965500	0.000309
-2.958500	0.000309
-2.951500	0.000310
-2.944500	0.000310
-2.937500	0.000310
-2.930500	0.000310
-2.923500	0.000310
-2.916500	0.000311
-2.909500	0.000311
-2.902500	0.000311
-2.895500	0.000311
-2.888500	0.000311
-2.881500	0.000311
-2.874500	0.000312
-2.867500	0.000312
-2.860500	0.000312
-2.853500	0.000312
-2.846500	0.000312
-2.839500	0.000312
-2.832500	0.000313
-2.825500	0.000313
-2.818500	0.000313
-2.811500	0.000313
-2.804500	0.000313
-2.797500	0.000314
-2.790500	0.000314
-2.783500	0.000314
-2.776500	0.000314
-2.769500	0.000314
-2.762500	0.000314
-2.755500	0.000314
-2.748500	0.000315
-2.741500	0.000315
-2.734500	0.000315
-2.727500	0.000315
-2.720500	0.000315
-2.713500	0.000315
-2.706500	0.000316
-2.699500	0.000316
-2.692500	0.000316
-2.685500	0.000316
-2.678500	0.000316
-2.671500	0.000316
-2.664500	0.000316
-2.657500	0.000317
-2.650500	0.000317
-2.643500	0.000317
-2.636500	0.000317
-2.629500	0.000317
-2.622500	0.000317
-2.615000	0.000318
-2.608000	0.000318
-2.601000	0.000318
-2.594000	0.000318
-2.587000	0.000318
-2.580000	0.000318
-2.573000	0.000318
-2.566000	0.000318
-2.559000	0.000319
-2.552000	0.000319
-2.545000	0.000319
-2.538000	0.000319
-2.531000	0.000319
-2.524000	0.000319
-2.517000	0.000319
-2.510000	0.000320
-2.503000	0.000320
-2.496000	0.000320
-2.489000	0.000320
-2.482000	0.000320
-2.475000	0.000320
-2.468000	0.000321
-2.461000	0.000321
-2.454000	0.000321
-2.447000	0.000321
-2.440000	0.000321
-2.433000	0.000321
-2.426000	0.000321
-2.419000	0.000321
-2.412000	0.000321
-2.405000	0.000322
-2.398000	0.000322
-2.391000	0.000322
-2.384000	0.000322
-2.377000	0.000322
-2.370000	0.000322
-2.363000	0.000322
-2.356000	0.000323
-2.349000	0.000323
-2.342000	0.000323
-2.335000	0.000323
-2.328000	0.000323
-2.321000	0.000323
-2.314000	0.000323
-2.307000	0.000323
-2.300000	0.000324
-2.293000	0.000324
-2.286000	0.000324
-2.279000	0.000324
-2.272000	0.000324
-2.265000	0.000324
-2.258000	0.000324
-2.251000	0.000324
-2.244000	0.000325
-2.237000	0.000325
-2.230000	0.000325
-2.223000	0.000325
-2.216000	0.000325
-2.209000	0.000325
-2.202000	0.000325
-2.195000	0.000325
-2.188000	0.000326
-2.181000	0.000326
-2.174000	0.000326
-2.167000	0.000326
-2.160000	0.000326
-2.153000	0.000326
-2.146000	0.000326
-2.139000	0.000326
-2.132000	0.000326
-2.125000	0.000327
-2.118000	0.000327
-2.111000	0.000327
-2.104000	0.000327
-2.097000	0.000327
-2.090000	0.000327
-2.083000	0.000327
-2.076000	0.000327
-2.069000	0.000327
-2.062000	0.000328
-2.055000	0.000328
-2.048000	0.000328
-2.041000	0.000328
-2.034000	0.000328
-2.027000	0.000328
-2.020000	0.000328
-2.013000	0.000328
-2.006000	0.000329
-1.999000	0.000329
-1.992000	0.000329
-1.985000	0.000329
-1.978000	0.000329
-1.971000	0.000329
-1.964000	0.000329
-1.957000	0.000329
-1.950000	0.000329
-1.943000	0.000330
-1.936000	0.000330
-1.929000	0.000330
-1.922000	0.000330
-1.915000	0.000330
-1.908000	0.000330
-1.901000	0.000330
-1.894000	0.000330
-1.887000	0.000330
-1.880000	0.000330
-1.873000	0.000331
-1.866000	0.000330
-1.859000	0.000331
-1.852000	0.000331
-1.845000	0.000331
-1.838000	0.000331
-1.831000	0.000331
-1.824000	0.000331
-1.817000	0.000331
-1.810000	0.000331
-1.803000	0.000331
-1.796000	0.000332
-1.789000	0.000332
-1.782000	0.000332
-1.775000	0.000332
-1.768000	0.000332
-1.761000	0.000332
-1.754000	0.000332
-1.747000	0.000332
-1.740000	0.000332
-1.733000	0.000333
-1.726000	0.000333
-1.719000	0.000333
-1.712000	0.000333
-1.705000	0.000333
-1.698000	0.000333
-1.691000	0.000333
-1.684000	0.000333
-1.677000	0.000333
-1.670000	0.000333
-1.663000	0.000333
-1.656000	0.000334
-1.649000	0.000334
-1.642000	0.000334
-1.635000	0.000334
-1.627500	0.000334
-1.620500	0.000334
-1.613500	0.000334
-1.606500	0.000334
-1.599500	0.000334
-1.592500	0.000334
-1.585500	0.000335
-1.578500	0.000334
-1.571500	0.000335
-1.564500	0.000335
-1.557500	0.000335
-1.550500	0.000335
-1.543500	0.000335
-1.536500	0.000335
-1.529500	0.000335
-1.522500	0.000335
-1.515500	0.000335
-1.508500	0.000335
-1.501500	0.000335
-1.494500	0.000336
-1.487500	0.000336
-1.480500	0.000336
-1.473500	0.000336
-1.466500	0.000336
-1.459500	0.000336
-1.452500	0.000336
-1.445500	0.000336
-1.438500	0.000336
-1.431500	0.000336
-1.424500	0.000336
-1.417500	0.000337
-1.410500	0.000337
-1.403500	0.000337
-1.396500	0.000337
-1.389500	0.000337
-1.382500	0.000337
-1.375500	0.000337
-1.368500	0.000337
-1.361500	0.000337
-1.354500	0.000337
-1.347500	0.000337
-1.340500	0.000337
-1.333500	0.000337
-1.326500	0.000338
-1.319500	0.000338
-1.312500	0.000338
-1.305500	0.000338
-1.298500	0.000338
-1.291500	0.000338
-1.284500	0.000338
-1.277500	0.000338
-1.270500	0.000338
-1.263500	0.000338
-1.256500	0.000338
-1.249500	0.000338
-1.242500	0.000338
-1.235500	0.000339
-1.228500	0.000339
-1.221500	0.000339
-1.214500	0.000339
-1.207500	0.000339
-1.200500	0.000339
-1.193500	0.000339
-1.186500	0.000339
-1.179500	0.000339
-1.172500	0.000339
-1.165500	0.000339
-1.158500	0.000339
-1.151500	0.000339
-1.144500	0.000339
-1.137500	0.000340
-1.130500	0.000340
-1.123500	0.000340
-1.116500	0.000340
-1.109500	0.000340
-1.102500	0.000340
-1.095500	0.000340
-1.088500	0.000340
-1.081500	0.000340
-1.074500	0.000340
-1.067500	0.000340
-1.060500	0.000340
-1.053500	0.000340
-1.046500	0.000341
-1.039500	0.000341
-1.032500	0.000341
-1.025500	0.000341
-1.018500	0.000341
-1.011500	0.000341
-1.004500	0.000341
-0.997500	0.000341
-0.990500	0.000341
-0.983500	0.000341
-0.976500	0.000341
-0.969500	0.000341
-0.962500	0.000341
-0.955500	0.000341
-0.948500	0.000342
-0.941500	0.000342
-0.934500	0.000342
-0.927500	0.000342
-0.920500	0.000342
-0.913500	0.000342
-0.906500	0.000342
-0.899500	0.000342
-0.892500	0.000342
-0.885500	0.000342
-0.878500	0.000342
-0.871500	0.000342
-0.864500	0.000342
-0.857500	0.000342
-0.850500	0.000342
-0.843500	0.000342
-0.836500	0.000342
-0.829500	0.000343
-0.822500	0.000343
-0.815500	0.000343
-0.808500	0.000343
-0.801500	0.000343
-0.794500	0.000343
-0.787500	0.000343
-0.780500	0.000343
-0.773500	0.000343
-0.766500	0.000343
-0.759500	0.000343
-0.752500	0.000343
-0.745500	0.000343
-0.738500	0.000343
-0.731500	0.000343
-0.724500	0.000343
-0.717500	0.000343
-0.710500	0.000343
-0.703500	0.000343
-0.696500	0.000344
-0.689500	0.000344
-0.682500	0.000344
-0.675500	0.000344
-0.668500	0.000344
-0.661500	0.000344
-0.654500	0.000344
-0.647500	0.000344
-0.640500	0.000344
-0.633000	0.000344
-0.626000	0.000344
-0.619000	0.000344
-0.612000	0.000344
-0.605000	0.000344
-0.598000	0.000344
-0.591000	0.000344
-0.584000	0.000344
-0.577000	0.000345
-0.570000	0.000345
-0.563000	0.000345
-0.556000	0.000345
-0.549000	0.000345
-0.542000	0.000345
-0.535000	0.000345
-0.528000	0.000345
-0.521000	0.000345
-0.514000	0.000345
-0.507000	0.000345
-0.500000	0.000345
-0.493000	0.000345
-0.486000	0.000345
-0.479000	0.000345
-0.472000	0.000345
-0.465000	0.000345
-0.458000	0.000346
-0.451000	0.000346
-0.444000	0.000346
-0.437000	0.000346
-0.430000	0.000346
-0.423000	0.000346
-0.416000	0.000346
-0.409000	0.000346
-0.402000	0.000346
-0.395000	0.000346
-0.388000	0.000346
-0.381000	0.000346
-0.374000	0.000346
-0.367000	0.000346
-0.360000	0.000346
-0.353000	0.000346
-0.346000	0.000346
-0.339000	0.000346
-0.332000	0.000346
-0.325000	0.000346
-0.318000	0.000347
-0.311000	0.000347
-0.304000	0.000347
-0.297000	0.000347
-0.290000	0.000347
-0.283000	0.000347
-0.276000	0.000347
-0.269000	0.000347
-0.262000	0.000347
-0.255000	0.000347
-0.248000	0.000347
-0.241000	0.000347
-0.234000	0.000347
-0.227000	0.000347
-0.220000	0.000347
-0.213000	0.000347
-0.206000	0.000347
-0.199000	0.000347
-0.192000	0.000347
-0.185000	0.000347
-0.178000	0.000347
-0.171000	0.000347
-0.164000	0.000348
-0.157000	0.000348
-0.150000	0.000348
-0.143000	0.000348
-0.136000	0.000348
-0.129000	0.000348
-0.122000	0.000348
-0.115000	0.000348
-0.108000	0.000348
-0.101000	0.000348
-0.094000	0.000348
-0.087000	0.000348
-0.080000	0.000348
-0.073000	0.000348
-0.066000	0.000348
-0.059000	0.000348
-0.052000	0.000348
-0.045000	0.000348
-0.038000	0.000348
-0.031000	0.000348
-0.024000	0.000348
-0.017000	0.000348
-0.010000	0.000349
-0.003000	0.000349
0.004000	0.000349
0.011000	0.000349
0.018000	0.000349
0.025000	0.000349
0.032000	0.000349
0.039000	0.000349
0.046000	0.000349
0.053000	0.000349
0.060000	0.000349
0.067000	0.000349
0.074000	0.000349
0.081000	0.000349
0.088000	0.000349
0.095000	0.000349
0.102000	0.000349
0.109000	0.000349
0.116000	0.000349
0.123000	0.000349
0.130000	0.000349
0.137000	0.000349
0.144000	0.000349
0.151000	0.000349
0.158000	0.000349
0.165000	0.000350
0.172000	0.000350
0.179000	0.000350
0.186000	0.000350
0.193000	0.000350
0.200000	0.000350
0.207000	0.000350
0.214000	0.000350
0.221000	0.000350
0.228000	0.000350
0.235000	0.000350
0.242000	0.000350
0.249000	0.000350
0.256000	0.000350
0.263000	0.000350
0.270000	0.000350
0.277000	0.000350
0.284000	0.000350
0.291000	0.000350
0.298000	0.000350
0.305000	0.000350
0.312000	0.000350
0.319000	0.000350
0.326000	0.000350
0.333000	0.000351
0.340000	0.000351
0.347000	0.000351
0.354000	0.000351
0.361000	0.000351
0.368500	0.000351
0.375500	0.000351
0.382500	0.000351
0.389500	0.000351
0.396500	0.000351
0.403500	0.000351
0.410500	0.000351
0.417500	0.000351
0.424500	0.000351
0.431500	0.000351
0.438500	0.000351
0.445500	0.000351
0.452500	0.000351
0.459500	0.000351
0.466500	0.000351
0.473500	0.000351
0.480500	0.000351
0.487500	0.000351
0.494500	0.000351
0.501500	0.000351
0.508500	0.000351
0.515500	0.000352
0.522500	0.000351
0.529500	0.000352
0.536500	0.000352
0.543500	0.000352
0.550500	0.000352
0.557500	0.000352
0.564500	0.000352
0.571500	0.000352
0.578500	0.000352
0.585500	0.000352
0.592500	0.000352
0.599500	0.000352
0.606500	0.000352
0.613500	0.000352
0.620500	0.000352
0.627500	0.000352
0.634500	0.000352
0.641500	0.000352
0.648500	0.000352
0.655500	0.000352
0.662500	0.000352
0.669500	0.000352
0.676500	0.000352
0.683500	0.000352
0.690500	0.000352
0.697500	0.000352
0.704500	0.000352
0.711500	0.000352
0.718500	0.000352
0.725500	0.000352
0.732500	0.000352
0.739500	0.000353
0.746500	0.000353
0.753500	0.000353
0.760500	0.000353
0.767500	0.000353
0.774500	0.000353
0.781500	0.000352
0.788500	0.000353
0.795500	0.000353
0.802500	0.000353
0.809500	0.000353
0.816500	0.000353
0.823500	0.000353
0.830500	0.000353
0.837500	0.000353
0.844500	0.000353
0.851500	0.000353
0.858500	0.000353
0.865500	0.000353
0.872500	0.000353
0.879500	0.000353
0.886500	0.000353
0.893500	0.000353
0.900500	0.000353
0.907500	0.000353
0.914500	0.000353
0.921500	0.000353
0.928500	0.000353
0.935500	0.000353
0.942500	0.000353
0.949500	0.000353
0.956500	0.000353
0.963500	0.000354
0.970500	0.000353
0.977500	0.000354
0.984500	0.000354
0.991500	0.000354
0.998500	0.000354
1.005500	0.000354
1.012500	0.000354
1.019500	0.000354
1.026500	0.000354
1.033500	0.000354
1.040500	0.000354
1.047500	0.000354
1.054500	0.000354
1.061500	0.000354
1.068500	0.000354
1.075500	0.000354
1.082500	0.000354
1.089500	0.000354
1.096500	0.000354
1.103500	0.000354
1.110500	0.000354
1.117500	0.000354
1.124500	0.000354
1.131500	0.000354
1.138500	0.000354
1.145500	0.000354
1.152500	0.000354
1.159500	0.000354
1.166500	0.000354
1.173500	0.000354
1.180500	0.000354
1.187500	0.000354
1.194500	0.000354
1.201500	0.000354
1.208500	0.000354
1.215500	0.000354
1.222500	0.000354
1.229500	0.000354
1.236500	0.000354
1.243500	0.000354
1.250500	0.000354
1.257500	0.000354
1.264500	0.000355
1.271500	0.000355
1.278500	0.000355
1.285500	0.000355
1.292500	0.000355
1.299500	0.000355
1.306500	0.000355
1.313500	0.000355
1.320500	0.000355
1.327500	0.000355
1.334500	0.000355
1.341500	0.000355
1.348500	0.000355
1.355500	0.000355
1.363000	0.000355
1.370000	0.000355
1.377000	0.000355
1.384000	0.000355
1.391000	0.000355
1.398000	0.000355
1.405000	0.000355
1.412000	0.000355
1.419000	0.000355
1.426000	0.000355
1.433000	0.000355
1.440000	0.000355
1.447000	0.000355
1.454000	0.000355
1.461000	0.000355
1.468000	0.000355
1.475000	0.000355
1.482000	0.000355
1.489000	0.000355
1.496000	0.000355
1.503000	0.000355
1.510000	0.000355
1.517000	0.000355
1.524000	0.000355
1.531000	0.000355
1.538000	0.000355
1.545000	0.000355
1.552000	0.000355
1.559000	0.000356
1.566000	0.000355
1.573000	0.000356
1.580000	0.000356
1.587000	0.000356
1.594000	0.000356
1.601000	0.000356
1.608000	0.000356
1.615000	0.000356
1.622000	0.000356
1.629000	0.000356
1.636000	0.000356
1.643000	0.000356
1.650000	0.000356
1.657000	0.000356
1.664000	0.000356
1.671000	0.000356
1.678000	0.000356
1.685000	0.000356
1.692000	0.000356
1.699000	0.000356
1.706000	0.000356
1.713000	0.000356
1.720000	0.000356
1.727000	0.000356
1.734000	0.000356
1.741000	0.000356
1.748000	0.000356
1.755000	0.000356
1.762000	0.000356
1.769000	0.000356
1.776000	0.000356
1.783000	0.000356
1.790000	0.000356
1.797000	0.000356
1.804000	0.000356
1.811000	0.000356
1.818000	0.000356
1.825000	0.000356
1.832000	0.000356
1.839000	0.000356
1.846000	0.000356
1.853000	0.000356
1.860000	0.000356
1.867000	0.000356
1.874000	0.000356
1.881000	0.000356
1.888000	0.000356
1.895000	0.000356
1.902000	0.000357
1.909000	0.000357
1.916000	0.000357
1.923000	0.000357
1.930000	0.000357
1.937000	0.000357
1.944000	0.000357
1.951000	0.000357
1.958000	0.000357
1.965000	0.000357
1.972000	0.000357
1.979000	0.000357
1.986000	0.000357
1.993000	0.000357
2.000000	0.000357
